trials.thisRepN,trials.thisTrialN,trials.thisN,trials.thisIndex,fixation.started,key_resp.started,fixation.stopped,tilt,key_resp.keys,key_resp.corr,key_resp.rt,key_resp.duration,participant,session,date,expName,psychopyVersion,frameRate
0,0,0,0,12.1930709,13.2243724,13.2297652,0,up,0,0.7776538,None,559641,1,2023-09-09_20h45.37.141,TUTORIALS 2,2023.1.3,60.00020407
1,0,1,0,14.0207457,15.0208866,15.0208866,-5,up,0,0.3669107,None,559641,1,2023-09-09_20h45.37.141,TUTORIALS 2,2023.1.3,60.00020407
2,0,2,0,15.4206918,16.420707,16.420707,0,up,1,0.4663014,None,559641,1,2023-09-09_20h45.37.141,TUTORIALS 2,2023.1.3,60.00020407
3,0,3,0,16.9040327,17.904236,17.904236,-4,up,0,0.3760931,None,559641,1,2023-09-09_20h45.37.141,TUTORIALS 2,2023.1.3,60.00020407
4,0,4,0,18.3038079,19.3043489,19.3043489,-5,up,0,0.5320014,None,559641,1,2023-09-09_20h45.37.141,TUTORIALS 2,2023.1.3,60.00020407
5,0,5,0,19.8536992,20.8541318,20.8541318,-5,up,0,0.3860776,None,559641,1,2023-09-09_20h45.37.141,TUTORIALS 2,2023.1.3,60.00020407
6,0,6,0,21.2703709,22.2704823,22.2704823,0,up,1,0.4269768,None,559641,1,2023-09-09_20h45.37.141,TUTORIALS 2,2023.1.3,60.00020407
7,0,7,0,22.720293,23.7206922,23.7206922,0,up,1,0.4307052,None,559641,1,2023-09-09_20h45.37.141,TUTORIALS 2,2023.1.3,60.00020407
8,0,8,0,24.1701202,25.1706579,25.1706579,0,up,1,0.4674475,None,559641,1,2023-09-09_20h45.37.141,TUTORIALS 2,2023.1.3,60.00020407
9,0,9,0,25.6699253,26.6703516,26.6703516,0,up,1,0.3837939,None,559641,1,2023-09-09_20h45.37.141,TUTORIALS 2,2023.1.3,60.00020407
10,0,10,0,27.0868741,28.0869133,28.0869133,-1,up,0,0.3306839,None,559641,1,2023-09-09_20h45.37.141,TUTORIALS 2,2023.1.3,60.00020407
11,0,11,0,28.4366263,29.4371665,29.4371665,2,up,0,0.3454778,None,559641,1,2023-09-09_20h45.37.141,TUTORIALS 2,2023.1.3,60.00020407
12,0,12,0,29.8034098,30.8036092,30.8036092,4,down,1,0.585027,None,559641,1,2023-09-09_20h45.37.141,TUTORIALS 2,2023.1.3,60.00020407
13,0,13,0,31.4200598,32.4201188,32.4201188,2,up,0,0.355402,None,559641,1,2023-09-09_20h45.37.141,TUTORIALS 2,2023.1.3,60.00020407
14,0,14,0,32.8030894,33.8035433,33.8035433,0,up,1,0.5020741,None,559641,1,2023-09-09_20h45.37.141,TUTORIALS 2,2023.1.3,60.00020407
15,0,15,0,34.3364964,35.3366404,35.3366404,0,up,1,0.5009389,None,559641,1,2023-09-09_20h45.37.141,TUTORIALS 2,2023.1.3,60.00020407
16,0,16,0,35.8695936,36.8698391,36.8698391,0,up,1,0.5197643,None,559641,1,2023-09-09_20h45.37.141,TUTORIALS 2,2023.1.3,60.00020407
17,0,17,0,37.4196538,38.4197363,38.4197363,0,up,1,0.5308308,None,559641,1,2023-09-09_20h45.37.141,TUTORIALS 2,2023.1.3,60.00020407
18,0,18,0,38.9694833,39.9698963,39.9698963,0,up,0,0.4906962,None,559641,1,2023-09-09_20h45.37.141,TUTORIALS 2,2023.1.3,60.00020407
19,0,19,0,40.4861792,41.4865705,41.4865705,-1,up,0,0.3768938,None,559641,1,2023-09-09_20h45.37.141,TUTORIALS 2,2023.1.3,60.00020407
20,0,20,0,41.8865318,42.9500403,42.9500403,2,up,0,0.3125345,None,559641,1,2023-09-09_20h45.37.141,TUTORIALS 2,2023.1.3,60.00020407
21,0,21,0,43.2863689,44.28631,44.28631,0,up,1,0.4808772,None,559641,1,2023-09-09_20h45.37.141,TUTORIALS 2,2023.1.3,60.00020407
22,0,22,0,44.7860672,45.786434,45.786434,-4,down,1,0.6085055,None,559641,1,2023-09-09_20h45.37.141,TUTORIALS 2,2023.1.3,60.00020407
23,0,23,0,46.4192987,47.4194628,47.4194628,-2,down,1,0.5828229,None,559641,1,2023-09-09_20h45.37.141,TUTORIALS 2,2023.1.3,60.00020407
24,0,24,0,48.0191011,49.0193679,49.0193679,0,up,1,0.514446,None,559641,1,2023-09-09_20h45.37.141,TUTORIALS 2,2023.1.3,60.00020407
25,0,25,0,49.5523655,50.552796,50.552796,0,up,1,0.4680243,None,559641,1,2023-09-09_20h45.37.141,TUTORIALS 2,2023.1.3,60.00020407
26,0,26,0,51.0524839,52.0527654,52.0527654,0,up,1,0.4020604,None,559641,1,2023-09-09_20h45.37.141,TUTORIALS 2,2023.1.3,60.00020407
27,0,27,0,52.4857518,53.5295277,53.5295277,-1,up,0,0.6133441,None,559641,1,2023-09-09_20h45.37.141,TUTORIALS 2,2023.1.3,60.00020407
28,0,28,0,54.1690246,55.1693982,55.1693982,3,down,1,0.504737,None,559641,1,2023-09-09_20h45.37.141,TUTORIALS 2,2023.1.3,60.00020407
29,0,29,0,55.702285,56.7026031,56.7026031,0,up,1,0.3784707,None,559641,1,2023-09-09_20h45.37.141,TUTORIALS 2,2023.1.3,60.00020407
30,0,30,0,57.1021383,58.1024251,58.1024251,-4,down,1,0.4876323,None,559641,1,2023-09-09_20h45.37.141,TUTORIALS 2,2023.1.3,60.00020407
31,0,31,0,58.6188313,59.6191441,59.6191441,-4,up,0,0.4129465,None,559641,1,2023-09-09_20h45.37.141,TUTORIALS 2,2023.1.3,60.00020407
32,0,32,0,60.051965,61.0523243,61.0523243,0,up,1,0.5238251,None,559641,1,2023-09-09_20h45.37.141,TUTORIALS 2,2023.1.3,60.00020407
33,0,33,0,61.6021333,62.6021205,62.6021205,0,up,1,0.7330235,None,559641,1,2023-09-09_20h45.37.141,TUTORIALS 2,2023.1.3,60.00020407
34,0,34,0,63.3521784,64.3522944,64.3522944,0,up,1,0.4329028,None,559641,1,2023-09-09_20h45.37.141,TUTORIALS 2,2023.1.3,60.00020407
35,0,35,0,64.8018519,65.8020987,65.8020987,0,up,1,0.4010081,None,559641,1,2023-09-09_20h45.37.141,TUTORIALS 2,2023.1.3,60.00020407
36,0,36,0,66.2350405,67.2353526,67.2353526,-5,down,1,0.5456039,None,559641,1,2023-09-09_20h45.37.141,TUTORIALS 2,2023.1.3,60.00020407
37,0,37,0,67.8017709,68.8020232,68.8020232,0,up,0,0.4304275,None,559641,1,2023-09-09_20h45.37.141,TUTORIALS 2,2023.1.3,60.00020407
38,0,38,0,69.2516177,70.2521353,70.2521353,3,up,0,0.5202854,None,559641,1,2023-09-09_20h45.37.141,TUTORIALS 2,2023.1.3,60.00020407
39,0,39,0,70.8015534,71.8017208,71.8017208,0,up,1,0.3997634,None,559641,1,2023-09-09_20h45.37.141,TUTORIALS 2,2023.1.3,60.00020407
40,0,40,0,72.228545,73.2352201,73.2352201,0,up,1,0.4687823,None,559641,1,2023-09-09_20h45.37.141,TUTORIALS 2,2023.1.3,60.00020407
41,0,41,0,73.734854,74.7351853,74.7351853,0,up,1,0.4872389,None,559641,1,2023-09-09_20h45.37.141,TUTORIALS 2,2023.1.3,60.00020407
42,0,42,0,75.251426,76.2517482,76.2517482,0,up,1,0.4307506,None,559641,1,2023-09-09_20h45.37.141,TUTORIALS 2,2023.1.3,60.00020407
43,0,43,0,76.7013184,77.7016943,77.7016943,0,up,1,0.5037733,None,559641,1,2023-09-09_20h45.37.141,TUTORIALS 2,2023.1.3,60.00020407
44,0,44,0,78.2344804,79.234859,79.234859,0,up,1,0.6361567,None,559641,1,2023-09-09_20h45.37.141,TUTORIALS 2,2023.1.3,60.00020407
45,0,45,0,79.9011619,80.9017365,80.9017365,4,down,1,0.5596598,None,559641,1,2023-09-09_20h45.37.141,TUTORIALS 2,2023.1.3,60.00020407
46,0,46,0,81.4844269,82.4846235,82.4846235,0,up,1,0.5459479,None,559641,1,2023-09-09_20h45.37.141,TUTORIALS 2,2023.1.3,60.00020407
47,0,47,0,83.063479,84.0678891,84.0678891,-4,down,1,0.5777074,None,559641,1,2023-09-09_20h45.37.141,TUTORIALS 2,2023.1.3,60.00020407
48,0,48,0,84.667567,85.7020803,85.7020803,-5,up,0,0.4047571,None,559641,1,2023-09-09_20h45.37.141,TUTORIALS 2,2023.1.3,60.00020407
49,0,49,0,86.1343229,87.1345788,87.1345788,2,up,0,0.6850352,None,559641,1,2023-09-09_20h45.37.141,TUTORIALS 2,2023.1.3,60.00020407
50,0,50,0,87.8507578,88.8512133,88.8512133,0,up,1,0.4700844,None,559641,1,2023-09-09_20h45.37.141,TUTORIALS 2,2023.1.3,60.00020407
51,0,51,0,89.3506133,90.3510651,90.3510651,4,down,1,0.6030343,None,559641,1,2023-09-09_20h45.37.141,TUTORIALS 2,2023.1.3,60.00020407
52,0,52,0,91.0177368,92.0176785,92.0176785,-2,up,0,0.3997917,None,559641,1,2023-09-09_20h45.37.141,TUTORIALS 2,2023.1.3,60.00020407
53,0,53,0,92.4338776,93.4343073,93.4343073,-1,up,0,0.4567562,None,559641,1,2023-09-09_20h45.37.141,TUTORIALS 2,2023.1.3,60.00020407
54,0,54,0,93.9172781,94.9176168,94.9176168,0,up,1,0.4866334,None,559641,1,2023-09-09_20h45.37.141,TUTORIALS 2,2023.1.3,60.00020407
55,0,55,0,95.433845,96.4339933,96.4339933,2,down,1,0.6841922,None,559641,1,2023-09-09_20h45.37.141,TUTORIALS 2,2023.1.3,60.00020407
56,0,56,0,97.1504079,98.1507247,98.1507247,0,up,1,0.5364758,None,559641,1,2023-09-09_20h45.37.141,TUTORIALS 2,2023.1.3,60.00020407
57,0,57,0,98.7170918,99.717295,99.717295,0,up,0,0.4939356,None,559641,1,2023-09-09_20h45.37.141,TUTORIALS 2,2023.1.3,60.00020407
58,0,58,0,100.233542,101.2340917,101.2340917,0,up,1,0.4571144,None,559641,1,2023-09-09_20h45.37.141,TUTORIALS 2,2023.1.3,60.00020407
59,0,59,0,101.7168391,102.7171935,102.7171935,1,up,0,0.5538277,None,559641,1,2023-09-09_20h45.37.141,TUTORIALS 2,2023.1.3,60.00020407
60,0,60,0,103.3000659,104.3050216,104.3050216,-1,up,0,0.5581841,None,559641,1,2023-09-09_20h45.37.141,TUTORIALS 2,2023.1.3,60.00020407
61,0,61,0,104.8834057,105.8835976,105.8835976,0,up,1,0.5082998,None,559641,1,2023-09-09_20h45.37.141,TUTORIALS 2,2023.1.3,60.00020407
62,0,62,0,106.4168857,107.4171272,107.4171272,-3,down,1,0.6118099,None,559641,1,2023-09-09_20h45.37.141,TUTORIALS 2,2023.1.3,60.00020407
63,0,63,0,108.0500043,109.0503146,109.0503146,-3,down,1,0.632525,None,559641,1,2023-09-09_20h45.37.141,TUTORIALS 2,2023.1.3,60.00020407
64,0,64,0,109.7299821,110.7334347,110.7334347,0,up,1,0.4583828,None,559641,1,2023-09-09_20h45.37.141,TUTORIALS 2,2023.1.3,60.00020407
65,0,65,0,111.2166513,112.2168085,112.2168085,0,up,1,0.7040301,None,559641,1,2023-09-09_20h45.37.141,TUTORIALS 2,2023.1.3,60.00020407
66,0,66,0,112.9497674,113.9499147,113.9499147,0,up,1,0.4748647,None,559641,1,2023-09-09_20h45.37.141,TUTORIALS 2,2023.1.3,60.00020407
67,0,67,0,114.4495881,115.4496606,115.4496606,0,up,1,1.7612221,None,559641,1,2023-09-09_20h45.37.141,TUTORIALS 2,2023.1.3,60.00020407
68,0,68,0,117.2329758,118.2329811,118.2329811,0,up,1,0.4091914,None,559641,1,2023-09-09_20h45.37.141,TUTORIALS 2,2023.1.3,60.00020407
69,0,69,0,118.6661108,119.6662638,119.6662638,0,up,1,0.3049205,None,559641,1,2023-09-09_20h45.37.141,TUTORIALS 2,2023.1.3,60.00020407
70,0,70,0,119.9993191,120.9997469,120.9997469,3,up,0,0.3530011,None,559641,1,2023-09-09_20h45.37.141,TUTORIALS 2,2023.1.3,60.00020407
71,0,71,0,121.3830022,122.3830105,122.3830105,-5,down,1,0.0348249,None,559641,1,2023-09-09_20h45.37.141,TUTORIALS 2,2023.1.3,60.00020407
72,0,72,0,122.4496629,123.4496444,123.4496444,0,up,1,0.6145049,None,559641,1,2023-09-09_20h45.37.141,TUTORIALS 2,2023.1.3,60.00020407
73,0,73,0,124.0826202,125.0829696,125.0829696,-5,down,1,0.5301627,None,559641,1,2023-09-09_20h45.37.141,TUTORIALS 2,2023.1.3,60.00020407
74,0,74,0,125.6326737,126.6330852,126.6330852,-4,down,1,0.5369867,None,559641,1,2023-09-09_20h45.37.141,TUTORIALS 2,2023.1.3,60.00020407
75,0,75,0,127.1992667,128.1992523,128.1992523,0,up,1,0.6568912,None,559641,1,2023-09-09_20h45.37.141,TUTORIALS 2,2023.1.3,60.00020407
76,0,76,0,128.882424,129.8827648,129.8827648,2,down,1,0.5714878,None,559641,1,2023-09-09_20h45.37.141,TUTORIALS 2,2023.1.3,60.00020407
77,0,77,0,130.4822723,131.482886,131.482886,0,up,1,0.6207982,None,559641,1,2023-09-09_20h45.37.141,TUTORIALS 2,2023.1.3,60.00020407
78,0,78,0,132.1325806,133.1327187,133.1327187,0,up,1,0.4879591,None,559641,1,2023-09-09_20h45.37.141,TUTORIALS 2,2023.1.3,60.00020407
79,0,79,0,133.6681289,134.6657763,134.6825777,1,up,0,0.3508456,None,559641,1,2023-09-09_20h45.37.141,TUTORIALS 2,2023.1.3,60.00020407
80,0,80,0,135.0487974,136.0491196,136.0491196,1,up,0,0.5936167,None,559641,1,2023-09-09_20h45.37.141,TUTORIALS 2,2023.1.3,60.00020407
81,0,81,0,136.6654865,137.6658275,137.6658275,0,up,1,0.4503201,None,559641,1,2023-09-09_20h45.37.141,TUTORIALS 2,2023.1.3,60.00020407
82,0,82,0,138.1487054,139.1491432,139.1491432,2,up,0,0.3912397,None,559641,1,2023-09-09_20h45.37.141,TUTORIALS 2,2023.1.3,60.00020407
83,0,83,0,139.5651818,140.5657164,140.5657164,-4,down,1,0.5641353,None,559641,1,2023-09-09_20h45.37.141,TUTORIALS 2,2023.1.3,60.00020407
84,0,84,0,141.148462,142.1487305,142.1487305,3,down,1,0.4480707,None,559641,1,2023-09-09_20h45.37.141,TUTORIALS 2,2023.1.3,60.00020407
85,0,85,0,142.6153782,143.6154795,143.6154795,4,down,1,0.4663623,None,559641,1,2023-09-09_20h45.37.141,TUTORIALS 2,2023.1.3,60.00020407
86,0,86,0,144.0912893,145.098493,145.098493,0,up,1,0.5292002,None,559641,1,2023-09-09_20h45.37.141,TUTORIALS 2,2023.1.3,60.00020407
87,0,87,0,145.6483548,146.7081221,146.7081221,0,up,1,0.3575572,None,559641,1,2023-09-09_20h45.37.141,TUTORIALS 2,2023.1.3,60.00020407
88,0,88,0,147.0981822,148.0987079,148.0987079,0,up,1,0.3570229,None,559641,1,2023-09-09_20h45.37.141,TUTORIALS 2,2023.1.3,60.00020407
89,0,89,0,148.4816179,149.4817874,149.4817874,1,up,0,0.3710053,None,559641,1,2023-09-09_20h45.37.141,TUTORIALS 2,2023.1.3,60.00020407
90,0,90,0,149.8814949,150.8818767,150.8818767,2,up,0,0.3828811,None,559641,1,2023-09-09_20h45.37.141,TUTORIALS 2,2023.1.3,60.00020407
91,0,91,0,151.2814523,152.2817533,152.2817533,0,up,1,0.4597878,None,559641,1,2023-09-09_20h45.37.141,TUTORIALS 2,2023.1.3,60.00020407
92,0,92,0,152.764701,153.7650789,153.7650789,-4,up,0,0.4306079,None,559641,1,2023-09-09_20h45.37.141,TUTORIALS 2,2023.1.3,60.00020407
93,0,93,0,154.2146227,155.2149426,155.2149426,0,down,0,0.5360438,None,559641,1,2023-09-09_20h45.37.141,TUTORIALS 2,2023.1.3,60.00020407
94,0,94,0,155.7811889,156.7817472,156.7817472,0,up,1,0.3312872,None,559641,1,2023-09-09_20h45.37.141,TUTORIALS 2,2023.1.3,60.00020407
95,0,95,0,157.1384055,158.1315209,158.1481621,0,up,0,0.3945857,None,559641,1,2023-09-09_20h45.37.141,TUTORIALS 2,2023.1.3,60.00020407
96,0,96,0,158.5479271,159.5482306,159.5482306,0,up,1,0.3549278,None,559641,1,2023-09-09_20h45.37.141,TUTORIALS 2,2023.1.3,60.00020407
97,0,97,0,159.9311018,160.9314646,160.9314646,0,up,1,0.5368491,None,559641,1,2023-09-09_20h45.37.141,TUTORIALS 2,2023.1.3,60.00020407
98,0,98,0,161.4977357,162.4978331,162.4978331,0,up,1,0.4985788,None,559641,1,2023-09-09_20h45.37.141,TUTORIALS 2,2023.1.3,60.00020407
99,0,99,0,163.0143597,164.0146203,164.0146203,-1,up,0,0.1695591,None,559641,1,2023-09-09_20h45.37.141,TUTORIALS 2,2023.1.3,60.00020407
100,0,100,0,164.2141613,165.2145087,165.2145087,-1,up,0,0.4515667,None,559641,1,2023-09-09_20h45.37.141,TUTORIALS 2,2023.1.3,60.00020407
101,0,101,0,165.69736,166.697602,166.697602,-2,up,0,0.3875523,None,559641,1,2023-09-09_20h45.37.141,TUTORIALS 2,2023.1.3,60.00020407
102,0,102,0,167.1140499,168.1144193,168.1144193,0,up,1,0.5637506,None,559641,1,2023-09-09_20h45.37.141,TUTORIALS 2,2023.1.3,60.00020407
103,0,103,0,168.6971556,169.6977281,169.6977281,0,up,1,0.3289045,None,559641,1,2023-09-09_20h45.37.141,TUTORIALS 2,2023.1.3,60.00020407
104,0,104,0,170.047217,171.0476833,171.0476833,0,up,1,0.2979301,None,559641,1,2023-09-09_20h45.37.141,TUTORIALS 2,2023.1.3,60.00020407
105,0,105,0,171.3639343,172.364107,172.364107,0,up,1,0.2382973,None,559641,1,2023-09-09_20h45.37.141,TUTORIALS 2,2023.1.3,60.00020407
106,0,106,0,172.6307397,173.6307417,173.6307417,0,up,1,0.2724827,None,559641,1,2023-09-09_20h45.37.141,TUTORIALS 2,2023.1.3,60.00020407
107,0,107,0,173.9303726,174.9308421,174.9308421,0,up,1,0.309381,None,559641,1,2023-09-09_20h45.37.141,TUTORIALS 2,2023.1.3,60.00020407
108,0,108,0,175.2638938,176.2640584,176.2640584,0,up,1,0.2791539,None,559641,1,2023-09-09_20h45.37.141,TUTORIALS 2,2023.1.3,60.00020407
109,0,109,0,176.563817,177.5639954,177.5639954,0,up,1,0.2029235,None,559641,1,2023-09-09_20h45.37.141,TUTORIALS 2,2023.1.3,60.00020407
110,0,110,0,177.7967924,178.797323,178.797323,0,up,1,0.3267139,None,559641,1,2023-09-09_20h45.37.141,TUTORIALS 2,2023.1.3,60.00020407
111,0,111,0,179.1468055,180.1472159,180.1472159,0,up,1,0.3967476,None,559641,1,2023-09-09_20h45.37.141,TUTORIALS 2,2023.1.3,60.00020407
112,0,112,0,180.5635766,181.5637966,181.5637966,0,up,1,0.4296113,None,559641,1,2023-09-09_20h45.37.141,TUTORIALS 2,2023.1.3,60.00020407
113,0,113,0,182.0133351,183.0137834,183.0137834,-4,up,0,0.4236853,None,559641,1,2023-09-09_20h45.37.141,TUTORIALS 2,2023.1.3,60.00020407
114,0,114,0,183.4887763,184.4970043,184.4970043,-4,down,1,0.5021471,None,559641,1,2023-09-09_20h45.37.141,TUTORIALS 2,2023.1.3,60.00020407
115,0,115,0,185.0301365,186.0302251,186.0302251,0,down,0,0.3842508,None,559641,1,2023-09-09_20h45.37.141,TUTORIALS 2,2023.1.3,60.00020407
116,0,116,0,186.4466428,187.4468374,187.4468374,0,down,0,0.4848891,None,559641,1,2023-09-09_20h45.37.141,TUTORIALS 2,2023.1.3,60.00020407
117,0,117,0,187.9632728,188.9637224,188.9637224,-3,up,0,0.3359564,None,559641,1,2023-09-09_20h45.37.141,TUTORIALS 2,2023.1.3,60.00020407
118,0,118,0,189.3296843,190.3300625,190.3300625,0,up,1,0.2036321,None,559641,1,2023-09-09_20h45.37.141,TUTORIALS 2,2023.1.3,60.00020407
119,0,119,0,190.5630445,191.5634094,191.5634094,0,up,1,0.4602235,None,559641,1,2023-09-09_20h45.37.141,TUTORIALS 2,2023.1.3,60.00020407
120,0,120,0,192.0463499,193.0467158,193.0467158,0,up,1,0.3949506,None,559641,1,2023-09-09_20h45.37.141,TUTORIALS 2,2023.1.3,60.00020407
121,0,121,0,193.4629225,194.4634248,194.4634248,2,up,0,0.4376298,None,559641,1,2023-09-09_20h45.37.141,TUTORIALS 2,2023.1.3,60.00020407
122,0,122,0,194.9295706,195.9298665,195.9298665,0,up,1,0.484403,None,559641,1,2023-09-09_20h45.37.141,TUTORIALS 2,2023.1.3,60.00020407
123,0,123,0,196.4460186,197.4464438,197.4464438,1,up,0,0.7207996,None,559641,1,2023-09-09_20h45.37.141,TUTORIALS 2,2023.1.3,60.00020407
124,0,124,0,198.1960102,199.1962129,199.1962129,0,up,1,0.7050118,None,559641,1,2023-09-09_20h45.37.141,TUTORIALS 2,2023.1.3,60.00020407
125,0,125,0,199.9293586,200.929721,200.929721,-1,up,0,0.5759263,None,559641,1,2023-09-09_20h45.37.141,TUTORIALS 2,2023.1.3,60.00020407
126,0,126,0,201.5293635,202.529566,202.529566,0,up,1,0.7121174,None,559641,1,2023-09-09_20h45.37.141,TUTORIALS 2,2023.1.3,60.00020407
127,0,127,0,203.262603,204.2629812,204.2629812,0,up,1,2.6012864,None,559641,1,2023-09-09_20h45.37.141,TUTORIALS 2,2023.1.3,60.00020407
128,0,128,0,206.8957813,207.8960857,207.8960857,1,up,0,0.6301724,None,559641,1,2023-09-09_20h45.37.141,TUTORIALS 2,2023.1.3,60.00020407
129,0,129,0,208.545752,209.5460028,209.5460028,2,up,0,0.4053077,None,559641,1,2023-09-09_20h45.37.141,TUTORIALS 2,2023.1.3,60.00020407
130,0,130,0,209.979128,210.9790773,210.9790773,0,up,1,0.5565409,None,559641,1,2023-09-09_20h45.37.141,TUTORIALS 2,2023.1.3,60.00020407
131,0,131,0,211.5621819,212.5626174,212.5626174,-1,up,0,0.558991,None,559641,1,2023-09-09_20h45.37.141,TUTORIALS 2,2023.1.3,60.00020407
132,0,132,0,213.1455018,214.1458401,214.1458401,-3,down,1,0.5649923,None,559641,1,2023-09-09_20h45.37.141,TUTORIALS 2,2023.1.3,60.00020407
133,0,133,0,214.7288507,215.7292269,215.7292269,-1,up,0,0.5200944,None,559641,1,2023-09-09_20h45.37.141,TUTORIALS 2,2023.1.3,60.00020407
134,0,134,0,216.2787363,217.2793085,217.2793085,0,up,1,0.5192966,None,559641,1,2023-09-09_20h45.37.141,TUTORIALS 2,2023.1.3,60.00020407
135,0,135,0,217.8285282,218.8287518,218.8287518,0,up,1,0.6178719,None,559641,1,2023-09-09_20h45.37.141,TUTORIALS 2,2023.1.3,60.00020407
136,0,136,0,219.4785025,220.47876,220.47876,3,up,0,0.5072864,None,559641,1,2023-09-09_20h45.37.141,TUTORIALS 2,2023.1.3,60.00020407
137,0,137,0,221.0119218,222.0121583,222.0121583,0,up,1,0.5219151,None,559641,1,2023-09-09_20h45.37.141,TUTORIALS 2,2023.1.3,60.00020407
138,0,138,0,222.561873,223.5621773,223.5621773,-5,down,1,0.2729242,None,559641,1,2023-09-09_20h45.37.141,TUTORIALS 2,2023.1.3,60.00020407
139,0,139,0,223.8616725,224.8620188,224.8620188,-1,up,0,0.456944,None,559641,1,2023-09-09_20h45.37.141,TUTORIALS 2,2023.1.3,60.00020407
140,0,140,0,225.3449656,226.3451429,226.3451429,0,up,1,0.7430733,None,559641,1,2023-09-09_20h45.37.141,TUTORIALS 2,2023.1.3,60.00020407
141,0,141,0,227.1115434,228.1120132,228.1120132,-5,down,1,0.414226,None,559641,1,2023-09-09_20h45.37.141,TUTORIALS 2,2023.1.3,60.00020407
142,0,142,0,228.5448685,229.5451704,229.5451704,0,up,1,0.5040292,None,559641,1,2023-09-09_20h45.37.141,TUTORIALS 2,2023.1.3,60.00020407
143,0,143,0,230.0780351,231.0782416,231.0782416,-3,down,1,0.6830214,None,559641,1,2023-09-09_20h45.37.141,TUTORIALS 2,2023.1.3,60.00020407
144,0,144,0,231.7779876,232.778247,232.778247,0,up,1,0.4240032,None,559641,1,2023-09-09_20h45.37.141,TUTORIALS 2,2023.1.3,60.00020407
145,0,145,0,233.2279941,234.2282266,234.2282266,0,up,1,0.3796008,None,559641,1,2023-09-09_20h45.37.141,TUTORIALS 2,2023.1.3,60.00020407
146,0,146,0,234.6278213,235.6283406,235.6283406,-3,up,0,0.424539,None,559641,1,2023-09-09_20h45.37.141,TUTORIALS 2,2023.1.3,60.00020407
147,0,147,0,236.0779827,237.0779738,237.0779738,-3,down,1,0.7149561,None,559641,1,2023-09-09_20h45.37.141,TUTORIALS 2,2023.1.3,60.00020407
148,0,148,0,237.8108924,238.8112714,238.8112714,-5,down,1,0.4846707,None,559641,1,2023-09-09_20h45.37.141,TUTORIALS 2,2023.1.3,60.00020407
149,0,149,0,239.3109294,240.311412,240.311412,0,down,0,0.5718005,None,559641,1,2023-09-09_20h45.37.141,TUTORIALS 2,2023.1.3,60.00020407
150,0,150,0,240.910914,241.9112973,241.9112973,2,up,0,0.7600127,None,559641,1,2023-09-09_20h45.37.141,TUTORIALS 2,2023.1.3,60.00020407
151,0,151,0,242.6942222,243.6944274,243.6944274,0,up,1,0.4396385,None,559641,1,2023-09-09_20h45.37.141,TUTORIALS 2,2023.1.3,60.00020407
152,0,152,0,244.1608362,245.1612451,245.1612451,-4,up,0,0.3635422,None,559641,1,2023-09-09_20h45.37.141,TUTORIALS 2,2023.1.3,60.00020407
153,0,153,0,245.5442207,246.5442307,246.5442307,0,up,1,0.5905795,None,559641,1,2023-09-09_20h45.37.141,TUTORIALS 2,2023.1.3,60.00020407
154,0,154,0,247.1606234,248.1610484,248.1610484,-4,up,0,0.3687649,None,559641,1,2023-09-09_20h45.37.141,TUTORIALS 2,2023.1.3,60.00020407
155,0,155,0,248.5606252,249.5610493,249.5610493,0,up,0,0.7456492,None,559641,1,2023-09-09_20h45.37.141,TUTORIALS 2,2023.1.3,60.00020407
156,0,156,0,250.3270613,251.3274915,251.3274915,0,up,1,0.5032364,None,559641,1,2023-09-09_20h45.37.141,TUTORIALS 2,2023.1.3,60.00020407
157,0,157,0,251.86054,252.8607775,252.8607775,4,down,1,0.0209054,None,559641,1,2023-09-09_20h45.37.141,TUTORIALS 2,2023.1.3,60.00020407
158,0,158,0,252.910654,253.910714,253.910714,0,up,1,0.8870197,None,559641,1,2023-09-09_20h45.37.141,TUTORIALS 2,2023.1.3,60.00020407
159,0,159,0,254.8269232,255.827356,255.827356,-4,down,1,0.7575285,None,559641,1,2023-09-09_20h45.37.141,TUTORIALS 2,2023.1.3,60.00020407
160,0,160,0,256.6103468,257.610594,257.610594,1,down,1,0.5147354,None,559641,1,2023-09-09_20h45.37.141,TUTORIALS 2,2023.1.3,60.00020407
161,0,161,0,258.1437219,259.143877,259.143877,-1,up,0,0.1685065,None,559641,1,2023-09-09_20h45.37.141,TUTORIALS 2,2023.1.3,60.00020407
162,0,162,0,259.3433418,260.3439214,260.3439214,0,up,1,0.4343713,None,559641,1,2023-09-09_20h45.37.141,TUTORIALS 2,2023.1.3,60.00020407
163,0,163,0,260.8101556,261.8103555,261.8103555,0,up,1,0.7469821,None,559641,1,2023-09-09_20h45.37.141,TUTORIALS 2,2023.1.3,60.00020407
164,0,164,0,262.5766034,263.576808,263.576808,0,up,0,0.4910305,None,559641,1,2023-09-09_20h45.37.141,TUTORIALS 2,2023.1.3,60.00020407
165,0,165,0,264.0932271,265.0933091,265.0933091,4,up,0,0.5719403,None,559641,1,2023-09-09_20h45.37.141,TUTORIALS 2,2023.1.3,60.00020407
166,0,166,0,265.6932064,266.6934833,266.6934833,0,down,0,0.8629062,None,559641,1,2023-09-09_20h45.37.141,TUTORIALS 2,2023.1.3,60.00020407
167,0,167,0,267.5765903,268.5966775,268.5966775,0,up,1,0.4416162,None,559641,1,2023-09-09_20h45.37.141,TUTORIALS 2,2023.1.3,60.00020407
168,0,168,0,269.0597642,270.0600401,270.0600401,0,up,1,0.4643455,None,559641,1,2023-09-09_20h45.37.141,TUTORIALS 2,2023.1.3,60.00020407
169,0,169,0,270.5430536,271.5430852,271.5430852,0,up,1,0.6513064,None,559641,1,2023-09-09_20h45.37.141,TUTORIALS 2,2023.1.3,60.00020407
170,0,170,0,272.2263464,273.2264052,273.2264052,0,up,1,0.2954145,None,559641,1,2023-09-09_20h45.37.141,TUTORIALS 2,2023.1.3,60.00020407
171,0,171,0,273.5430181,274.5432617,274.5432617,-1,up,0,0.2920935,None,559641,1,2023-09-09_20h45.37.141,TUTORIALS 2,2023.1.3,60.00020407
172,0,172,0,274.8595464,275.8597085,275.8597085,-4,up,0,0.4017289,None,559641,1,2023-09-09_20h45.37.141,TUTORIALS 2,2023.1.3,60.00020407
173,0,173,0,276.2928931,277.292943,277.292943,0,up,1,0.8169847,None,559641,1,2023-09-09_20h45.37.141,TUTORIALS 2,2023.1.3,60.00020407
174,0,174,0,278.126015,279.1261149,279.1261149,0,up,1,0.4559832,None,559641,1,2023-09-09_20h45.37.141,TUTORIALS 2,2023.1.3,60.00020407
175,0,175,0,279.6091986,280.6097658,280.6097658,0,up,1,0.3697863,None,559641,1,2023-09-09_20h45.37.141,TUTORIALS 2,2023.1.3,60.00020407
176,0,176,0,281.0091807,282.0094934,282.0094934,0,up,0,0.371435,None,559641,1,2023-09-09_20h45.37.141,TUTORIALS 2,2023.1.3,60.00020407
177,0,177,0,282.4092535,283.4093649,283.4093649,-5,up,0,0.5885112,None,559641,1,2023-09-09_20h45.37.141,TUTORIALS 2,2023.1.3,60.00020407
178,0,178,0,284.025653,285.0260561,285.0260561,0,down,0,1.399847,None,559641,1,2023-09-09_20h45.37.141,TUTORIALS 2,2023.1.3,60.00020407
179,0,179,0,286.4424761,287.4427765,287.4427765,2,down,1,0.8298493,None,559641,1,2023-09-09_20h45.37.141,TUTORIALS 2,2023.1.3,60.00020407
180,0,180,0,288.2922181,289.2926177,289.2926177,0,down,0,1.8510911,None,559641,1,2023-09-09_20h45.37.141,TUTORIALS 2,2023.1.3,60.00020407
181,0,181,0,291.1754726,292.1756452,292.1756452,0,up,1,0.1029801,None,559641,1,2023-09-09_20h45.37.141,TUTORIALS 2,2023.1.3,60.00020407
182,0,182,0,292.3089115,293.3090172,293.3090172,0,up,1,0.9036531,None,559641,1,2023-09-09_20h45.37.141,TUTORIALS 2,2023.1.3,60.00020407
183,0,183,0,294.2419113,295.2864102,295.2864102,-3,up,0,0.3992392,None,559641,1,2023-09-09_20h45.37.141,TUTORIALS 2,2023.1.3,60.00020407
184,0,184,0,295.7086143,296.7088559,296.7088559,-2,up,0,1.2821963,None,559641,1,2023-09-09_20h45.37.141,TUTORIALS 2,2023.1.3,60.00020407
185,0,185,0,298.0085401,299.009034,299.009034,-2,up,0,0.4100644,None,559641,1,2023-09-09_20h45.37.141,TUTORIALS 2,2023.1.3,60.00020407
186,0,186,0,299.4417759,300.442043,300.442043,0,up,1,0.6870273,None,559641,1,2023-09-09_20h45.37.141,TUTORIALS 2,2023.1.3,60.00020407
187,0,187,0,301.1583479,302.1587439,302.1587439,2,up,0,0.4725819,None,559641,1,2023-09-09_20h45.37.141,TUTORIALS 2,2023.1.3,60.00020407
188,0,188,0,302.6583243,303.6585443,303.6585443,4,down,1,0.3706313,None,559641,1,2023-09-09_20h45.37.141,TUTORIALS 2,2023.1.3,60.00020407
189,0,189,0,304.0582011,305.0586991,305.0586991,-5,down,1,0.2743705,None,559641,1,2023-09-09_20h45.37.141,TUTORIALS 2,2023.1.3,60.00020407
190,0,190,0,305.3584486,306.3585749,306.3585749,0,down,0,2.6846587,None,559641,1,2023-09-09_20h45.37.141,TUTORIALS 2,2023.1.3,60.00020407
191,0,191,0,309.0745985,310.0748362,310.0748362,4,up,0,0.3438562,None,559641,1,2023-09-09_20h45.37.141,TUTORIALS 2,2023.1.3,60.00020407
192,0,192,0,310.4413772,311.4415548,311.4415548,3,down,1,0.1654594,None,559641,1,2023-09-09_20h45.37.141,TUTORIALS 2,2023.1.3,60.00020407
193,0,193,0,311.624526,312.6247565,312.6247565,2,down,1,0.4567956,None,559641,1,2023-09-09_20h45.37.141,TUTORIALS 2,2023.1.3,60.00020407
194,0,194,0,313.1078397,314.1082663,314.1082663,-5,down,1,2.0802788,None,559641,1,2023-09-09_20h45.37.141,TUTORIALS 2,2023.1.3,60.00020407
195,0,195,0,316.2078917,317.2082419,317.2082419,0,up,1,0.2083159,None,559641,1,2023-09-09_20h45.37.141,TUTORIALS 2,2023.1.3,60.00020407
196,0,196,0,317.4409664,318.4412562,318.4412562,4,up,0,0.4603096,None,559641,1,2023-09-09_20h45.37.141,TUTORIALS 2,2023.1.3,60.00020407
197,0,197,0,318.9242773,319.9244502,319.9244502,0,down,0,2.2852279,None,559641,1,2023-09-09_20h45.37.141,TUTORIALS 2,2023.1.3,60.00020407
198,0,198,0,322.24084,323.2408876,323.2408876,-3,up,0,0.8036404,None,559641,1,2023-09-09_20h45.37.141,TUTORIALS 2,2023.1.3,60.00020407
199,0,199,0,324.0741728,325.0742962,325.0742962,0,up,1,0.2248816,None,559641,1,2023-09-09_20h45.37.141,TUTORIALS 2,2023.1.3,60.00020407
